instructions.started,instructions.stopped,key_resp_start.keys,key_resp_start.rt,key_resp_start.duration,participant,session,date,expName,psychopyVersion,OS,frameRate,trial.started,trial.stopped,key_resp.keys,key_resp.rt,key_resp.duration,trials_1.thisRepN,trials_1.thisTrialN,trials_1.thisN,trials_1.thisIndex,trials_1.ran,amount1,amount2,trials_2.thisRepN,trials_2.thisTrialN,trials_2.thisN,trials_2.thisIndex,trials_2.ran,trials_3.thisRepN,trials_3.thisTrialN,trials_3.thisN,trials_3.thisIndex,trials_3.ran,bye.started,bye.stopped
0.0003,13.0597,space,13.0425,,133489,001,2026-05-11_13h49.12.465,delay_discount,2026.1.3,Win32,59.88023952,,,,,,,,,,,,,,,,,,,,,,,,
,,,,,133489,001,2026-05-11_13h49.12.465,delay_discount,2026.1.3,Win32,59.88023952,13.0881,16.9889,right,3.6575,,0,0,0,0,1,Receive £10 now,Receive £10 in 10 days time,,,,,,,,,,,,
,,,,,133489,001,2026-05-11_13h49.12.465,delay_discount,2026.1.3,Win32,59.88023952,16.991,21.4721,right,4.2516,,0,1,1,9,1,Receive £10 in 5 days time,Receive £9 now,,,,,,,,,,,,
,,,,,133489,001,2026-05-11_13h49.12.465,delay_discount,2026.1.3,Win32,59.88023952,21.4742,26.3049,right,4.609,,0,2,2,4,1,Receive £1 now,Receive £10 in 100 days time,,,,,,,,,,,,
,,,,,133489,001,2026-05-11_13h49.12.465,delay_discount,2026.1.3,Win32,59.88023952,26.3055,30.1549,right,3.6159,,0,3,3,8,1,Receive £3 in 90 days time,Receive £5 now,,,,,,,,,,,,
,,,,,133489,001,2026-05-11_13h49.12.465,delay_discount,2026.1.3,Win32,59.88023952,30.1556,37.0049,left,6.6256,,0,4,4,6,1,Receive £9 in 30 days time,Receive £2 now,,,,,,,,,,,,
,,,,,133489,001,2026-05-11_13h49.12.465,delay_discount,2026.1.3,Win32,59.88023952,37.0056,40.505,right,3.2683,,0,5,5,7,1,Receive £10 in 14 days time,Receive £7 now,,,,,,,,,,,,
,,,,,133489,001,2026-05-11_13h49.12.465,delay_discount,2026.1.3,Win32,59.88023952,40.5056,42.5551,right,1.8165,,0,6,6,3,1,Receive £1 now,Receive £7 in 7 days time,,,,,,,,,,,,
,,,,,133489,001,2026-05-11_13h49.12.465,delay_discount,2026.1.3,Win32,59.88023952,42.5565,45.4048,left,2.6208,,0,7,7,1,1,Receive £8 now,Receive £10 in 30 days time,,,,,,,,,,,,
,,,,,133489,001,2026-05-11_13h49.12.465,delay_discount,2026.1.3,Win32,59.88023952,45.4053,49.888,right,4.2544,,0,8,8,5,1,Receive £5 in 80 days time,Receive £4 now,,,,,,,,,,,,
,,,,,133489,001,2026-05-11_13h49.12.465,delay_discount,2026.1.3,Win32,59.88023952,49.8886,52.6384,right,2.5176,,0,9,9,2,1,Receive £5 now,Receive £8 in 2 days time,,,,,,,,,,,,
,,,,,133489,001,2026-05-11_13h49.12.465,delay_discount,2026.1.3,Win32,59.88023952,52.647,56.9551,right,4.0836,,,,,,,"Receive £6,000 now","Receive £20,000 in 100 days time",0,0,0,4,1,,,,,,,
,,,,,133489,001,2026-05-11_13h49.12.465,delay_discount,2026.1.3,Win32,59.88023952,56.9556,60.1884,left,3,,,,,,,"Receive £500,000 in 80 days time","Receive £4,000 now",0,1,1,5,1,,,,,,,
,,,,,133489,001,2026-05-11_13h49.12.465,delay_discount,2026.1.3,Win32,59.88023952,60.189,63.0713,left,2.659,,,,,,,"Receive £100,000 in 5 days time","Receive £20,000 now",0,2,2,9,1,,,,,,,
,,,,,133489,001,2026-05-11_13h49.12.465,delay_discount,2026.1.3,Win32,59.88023952,63.072,66.7551,left,3.4584,,,,,,,"Receive £8,000 in 30 days time","Receive £3,000 now",0,3,3,6,1,,,,,,,
,,,,,133489,001,2026-05-11_13h49.12.465,delay_discount,2026.1.3,Win32,59.88023952,66.7557,69.1217,right,2.1423,,,,,,,"Receive £1,000 in 14 days time",Receive £700 now,0,4,4,7,1,,,,,,,
,,,,,133489,001,2026-05-11_13h49.12.465,delay_discount,2026.1.3,Win32,59.88023952,69.1225,73.1385,right,3.7838,,,,,,,"Receive £10,000 now","Receive £100,000 in 10 days time",0,5,5,0,1,,,,,,,
,,,,,133489,001,2026-05-11_13h49.12.465,delay_discount,2026.1.3,Win32,59.88023952,73.1399,76.1384,right,2.7687,,,,,,,"Receive £100,000 now","Receive £7,000,000 in 1 year time",0,6,6,3,1,,,,,,,
,,,,,133489,001,2026-05-11_13h49.12.465,delay_discount,2026.1.3,Win32,59.88023952,76.1389,86.2551,left,9.8829,,,,,,,"Receive £30,000 in 90 days time","Receive £20,000 now",0,7,7,8,1,,,,,,,
,,,,,133489,001,2026-05-11_13h49.12.465,delay_discount,2026.1.3,Win32,59.88023952,86.2555,92.1385,left,5.6502,,,,,,,"Receive £5,000 now",Receive £800 in 2 days time,0,8,8,2,1,,,,,,,
,,,,,133489,001,2026-05-11_13h49.12.465,delay_discount,2026.1.3,Win32,59.88023952,92.139,95.1384,right,2.7681,,,,,,,"Receive £80,000 now","Receive £200,000 in 30 days time",0,9,9,1,1,,,,,,,
,,,,,133489,001,2026-05-11_13h49.12.465,delay_discount,2026.1.3,Win32,59.88023952,95.1472,98.6721,left,3.3061,,,,,,,Receive £10 now,Receive £10 in 10 days time,,,,,,0,0,0,0,1,,
,,,,,133489,001,2026-05-11_13h49.12.465,delay_discount,2026.1.3,Win32,59.88023952,98.6742,102.8885,right,3.9838,,,,,,,Receive £3 in 90 days time,Receive £5 now,,,,,,0,1,1,8,1,,
,,,,,133489,001,2026-05-11_13h49.12.465,delay_discount,2026.1.3,Win32,59.88023952,102.8891,109.6385,left,6.5252,,,,,,,Receive £5 now,Receive £8 in 2 days time,,,,,,0,2,2,2,1,,
,,,,,133489,001,2026-05-11_13h49.12.465,delay_discount,2026.1.3,Win32,59.88023952,109.639,112.2048,right,2.3419,,,,,,,Receive £10 in 5 days time,Receive £9 now,,,,,,0,3,3,9,1,,
,,,,,133489,001,2026-05-11_13h49.12.465,delay_discount,2026.1.3,Win32,59.88023952,112.2051,117.5052,left,5.0661,,,,,,,Receive £8 now,Receive £10 in 30 days time,,,,,,0,4,4,1,1,,
,,,,,133489,001,2026-05-11_13h49.12.465,delay_discount,2026.1.3,Win32,59.88023952,117.5059,120.0221,right,2.293,,,,,,,Receive £5 in 80 days time,Receive £4 now,,,,,,0,5,5,5,1,,
,,,,,133489,001,2026-05-11_13h49.12.465,delay_discount,2026.1.3,Win32,59.88023952,120.0226,123.1219,right,2.8701,,,,,,,Receive £1 now,Receive £7 in 7 days time,,,,,,0,6,6,3,1,,
,,,,,133489,001,2026-05-11_13h49.12.465,delay_discount,2026.1.3,Win32,59.88023952,123.1225,125.9551,right,2.6064,,,,,,,Receive £10 in 14 days time,Receive £7 now,,,,,,0,7,7,7,1,,
,,,,,133489,001,2026-05-11_13h49.12.465,delay_discount,2026.1.3,Win32,59.88023952,125.9558,132.6547,left,6.4744,,,,,,,Receive £9 in 30 days time,Receive £2 now,,,,,,0,8,8,6,1,,
,,,,,133489,001,2026-05-11_13h49.12.465,delay_discount,2026.1.3,Win32,59.88023952,132.6551,135.3553,left,2.4728,,,,,,,Receive £1 now,Receive £10 in 100 days time,,,,,,0,9,9,4,1,,
,,,,,133489,001,2026-05-11_13h49.12.465,delay_discount,2026.1.3,Win32,59.88023952,,,,,,,,,,,,,,,,,,,,,,,135.356,138.3557
