amount1,amount2,thisN,thisTrialN,thisRepN,key_resp.keys,key_resp.rt,key_resp.duration,trials_1.thisRepN,trials_1.thisTrialN,trials_1.thisN,trials_1.thisIndex,trials_2.thisRepN,trials_2.thisTrialN,trials_2.thisN,trials_2.thisIndex,trials_3.thisRepN,trials_3.thisTrialN,trials_3.thisN,trials_3.thisIndex,thisRow.t,notes,piloting,instructions.started,instr_txt.started,key_resp_start.started,instructions.stopped,key_resp_start.keys,key_resp_start.rt,key_resp_start.duration,trial.started,question.started,button_1.started,button_2.started,key_resp.started,trial.stopped,trials_1.key_resp.keys,trials_1.key_resp.rt,trials_1.key_resp.duration,trials_2.key_resp.keys,trials_2.key_resp.rt,trials_2.key_resp.duration,trials_3.key_resp.keys,trials_3.key_resp.rt,trials_3.key_resp.duration,bye.started,bye_txt.started,bye_txt.stopped,bye.stopped,participant,session,date,expName,expVersion,psychopyVersion,frameRate,expStart,
,,,,,,,,,,,,,,,,,,,,,,True,0.04598675004672259,0.06342091597616673,0.06342091597616673,9.900093207950704,space,9.802142750006169,None,,,,,,,,,,,,,,,,,,,,2786812,001,2026-05-10_12h27.53.800,delay_discount,,2026.1.3,59.98771738293175,2026-05-10 12h27.54.039454 +0300,
Receive £10 in 5 days time,Receive £9 now,0,0,0,right,3.193888668087311,None,0,0,0,9,,,,,,,,,9.946487416047603,,,,,,,,,,9.929858000017703,10.11321441596374,10.11321441596374,10.11321441596374,10.11321441596374,13.429073208011687,right,3.193888668087311,None,,,,,,,,,,,2786812,001,2026-05-10_12h27.53.800,delay_discount,,2026.1.3,59.98771738293175,2026-05-10 12h27.54.039454 +0300,
Receive £1 now,Receive £7 in 7 days time,1,1,0,right,1.2302060009678826,None,0,1,1,3,,,,,,,,,13.44691820803564,,,,,,,,,,13.437123915995471,13.6298990000505,13.6298990000505,13.6298990000505,13.6298990000505,14.866762457997538,right,1.2302060009678826,None,,,,,,,,,,,2786812,001,2026-05-10_12h27.53.800,delay_discount,,2026.1.3,59.98771738293175,2026-05-10 12h27.54.039454 +0300,
Receive £1 now,Receive £10 in 100 days time,2,2,0,right,5.0420273339841515,None,0,2,2,4,,,,,,,,,14.88030733296182,,,,,,,,,,14.869175208033994,15.080287958029658,15.080287958029658,15.080287958029658,15.080287958029658,20.13313954102341,right,5.0420273339841515,None,,,,,,,,,,,2786812,001,2026-05-10_12h27.53.800,delay_discount,,2026.1.3,59.98771738293175,2026-05-10 12h27.54.039454 +0300,
Receive £10 now,Receive £10 in 10 days time,3,3,0,left,1.2959550840314478,None,0,3,3,0,,,,,,,,,20.146789125050418,,,,,,,,,,20.135563208023086,20.346857958007604,20.346857958007604,20.346857958007604,20.346857958007604,21.6499008750543,left,1.2959550840314478,None,,,,,,,,,,,2786812,001,2026-05-10_12h27.53.800,delay_discount,,2026.1.3,59.98771738293175,2026-05-10 12h27.54.039454 +0300,
Receive £10 in 14 days time,Receive £7 now,4,4,0,right,2.513199750916101,None,0,4,4,7,,,,,,,,,21.679934832965955,,,,,,,,,,21.66004437499214,21.86362358299084,21.86362358299084,21.86362358299084,21.86362358299084,24.383099833037704,right,2.513199750916101,None,,,,,,,,,,,2786812,001,2026-05-10_12h27.53.800,delay_discount,,2026.1.3,59.98771738293175,2026-05-10 12h27.54.039454 +0300,
Receive £5 in 80 days time,Receive £4 now,5,5,0,right,2.015837416984141,None,0,5,5,5,,,,,,,,,24.398241583025083,,,,,,,,,,24.392910499940626,24.59690858295653,24.59690858295653,24.59690858295653,24.59690858295653,26.615420624963008,right,2.015837416984141,None,,,,,,,,,,,2786812,001,2026-05-10_12h27.53.800,delay_discount,,2026.1.3,59.98771738293175,2026-05-10 12h27.54.039454 +0300,
Receive £3 in 90 days time,Receive £5 now,6,6,0,right,1.5138241249369457,None,0,6,6,8,,,,,,,,,26.629446750041097,,,,,,,,,,26.6234029160114,26.829820582992397,26.829820582992397,26.829820582992397,26.829820582992397,28.34936137497425,right,1.5138241249369457,None,,,,,,,,,,,2786812,001,2026-05-10_12h27.53.800,delay_discount,,2026.1.3,59.98771738293175,2026-05-10 12h27.54.039454 +0300,
Receive £9 in 30 days time,Receive £2 now,7,7,0,left,1.8780944180907682,None,0,7,7,6,,,,,,,,,28.363219833001494,,,,,,,,,,28.358495958033018,28.56362112495117,28.56362112495117,28.56362112495117,28.56362112495117,30.451192375039682,left,1.8780944180907682,None,,,,,,,,,,,2786812,001,2026-05-10_12h27.53.800,delay_discount,,2026.1.3,59.98771738293175,2026-05-10 12h27.54.039454 +0300,
Receive £5 now,Receive £8 in 2 days time,8,8,0,right,1.6542017090832815,None,0,8,8,2,,,,,,,,,30.463505540974438,,,,,,,,,,30.453552040969953,30.663496666005813,30.663496666005813,30.663496666005813,30.663496666005813,32.33320966595784,right,1.6542017090832815,None,,,,,,,,,,,2786812,001,2026-05-10_12h27.53.800,delay_discount,,2026.1.3,59.98771738293175,2026-05-10 12h27.54.039454 +0300,
Receive £8 now,Receive £10 in 30 days time,9,9,0,left,1.7076641260646284,None,0,9,9,1,,,,,,,,,32.3469379999442,,,,,,,,,,32.335604707943276,32.54697337502148,32.54697337502148,32.54697337502148,32.54697337502148,34.265783290960826,left,1.7076641260646284,None,,,,,,,,,,,2786812,001,2026-05-10_12h27.53.800,delay_discount,,2026.1.3,59.98771738293175,2026-05-10 12h27.54.039454 +0300,
"Receive £5,000 now",Receive £800 in 2 days time,0,0,0,left,1.4624645840376616,None,,,,,0,0,0,2,,,,,34.279292749939486,,,,,,,,,,34.27561908296775,34.48011016601231,34.48011016601231,34.48011016601231,34.48011016601231,35.949505332973786,,,,left,1.4624645840376616,None,,,,,,,,2786812,001,2026-05-10_12h27.53.800,delay_discount,,2026.1.3,59.98771738293175,2026-05-10 12h27.54.039454 +0300,
"Receive £80,000 now","Receive £200,000 in 30 days time",1,1,0,right,1.6778621249832213,None,,,,,0,1,1,1,,,,,35.96354112494737,,,,,,,,,,35.95202058297582,36.16356870799791,36.16356870799791,36.16356870799791,36.16356870799791,37.85115095798392,,,,right,1.6778621249832213,None,,,,,,,,2786812,001,2026-05-10_12h27.53.800,delay_discount,,2026.1.3,59.98771738293175,2026-05-10 12h27.54.039454 +0300,
"Receive £100,000 now","Receive £7,000,000 in 1 year time",2,2,0,right,1.9136916249990463,None,,,,,0,2,2,3,,,,,37.86340712499805,,,,,,,,,,37.853626500000246,38.06343995803036,38.06343995803036,38.06343995803036,38.06343995803036,39.982746249996126,,,,right,1.9136916249990463,None,,,,,,,,2786812,001,2026-05-10_12h27.53.800,delay_discount,,2026.1.3,59.98771738293175,2026-05-10 12h27.54.039454 +0300,
"Receive £8,000 in 30 days time","Receive £3,000 now",3,3,0,left,5.733608833979815,None,,,,,0,3,3,6,,,,,39.996960666030645,,,,,,,,,,39.985146582941525,40.19693674996961,40.19693674996961,40.19693674996961,40.19693674996961,45.93258291599341,,,,left,5.733608833979815,None,,,,,,,,2786812,001,2026-05-10_12h27.53.800,delay_discount,,2026.1.3,59.98771738293175,2026-05-10 12h27.54.039454 +0300,
"Receive £10,000 now","Receive £100,000 in 10 days time",4,4,0,right,1.780710958992131,None,,,,,0,4,4,0,,,,,45.94631370797288,,,,,,,,,,45.93506012496073,46.14698383305222,46.14698383305222,46.14698383305222,46.14698383305222,47.933159540989436,,,,right,1.780710958992131,None,,,,,,,,2786812,001,2026-05-10_12h27.53.800,delay_discount,,2026.1.3,59.98771738293175,2026-05-10 12h27.54.039454 +0300,
"Receive £1,000 in 14 days time",Receive £700 now,5,5,0,right,1.405826751026325,None,,,,,0,5,5,7,,,,,47.94649033294991,,,,,,,,,,47.935650874977,48.14682087500114,48.14682087500114,48.14682087500114,48.14682087500114,49.566134040942416,,,,right,1.405826751026325,None,,,,,,,,2786812,001,2026-05-10_12h27.53.800,delay_discount,,2026.1.3,59.98771738293175,2026-05-10 12h27.54.039454 +0300,
"Receive £30,000 in 90 days time","Receive £20,000 now",6,6,0,right,3.215707625960931,None,,,,,0,6,6,8,,,,,49.58020583295729,,,,,,,,,,49.56861958303489,49.77985908300616,49.77985908300616,49.77985908300616,49.77985908300616,52.99909037502948,,,,right,3.215707625960931,None,,,,,,,,2786812,001,2026-05-10_12h27.53.800,delay_discount,,2026.1.3,59.98771738293175,2026-05-10 12h27.54.039454 +0300,
"Receive £500,000 in 80 days time","Receive £4,000 now",7,7,0,left,1.6359946259763092,None,,,,,0,7,7,5,,,,,53.01360945799388,,,,,,,,,,53.001500500016846,53.21355537499767,53.21355537499767,53.21355537499767,53.21355537499767,54.8657533749938,,,,left,1.6359946259763092,None,,,,,,,,2786812,001,2026-05-10_12h27.53.800,delay_discount,,2026.1.3,59.98771738293175,2026-05-10 12h27.54.039454 +0300,
"Receive £6,000 now","Receive £20,000 in 100 days time",8,8,0,left,2.488695042906329,None,,,,,0,8,8,4,,,,,54.879250874975696,,,,,,,,,,54.87533483305015,55.07977829105221,55.07977829105221,55.07977829105221,55.07977829105221,57.58212783304043,,,,left,2.488695042906329,None,,,,,,,,2786812,001,2026-05-10_12h27.53.800,delay_discount,,2026.1.3,59.98771738293175,2026-05-10 12h27.54.039454 +0300,
"Receive £100,000 in 5 days time","Receive £20,000 now",9,9,0,left,1.5714005840709433,None,,,,,0,9,9,9,,,,,57.596005416009575,,,,,,,,,,57.58449587505311,57.79610220796894,57.79610220796894,57.79610220796894,57.79610220796894,59.382891749963164,,,,left,1.5714005840709433,None,,,,,,,,2786812,001,2026-05-10_12h27.53.800,delay_discount,,2026.1.3,59.98771738293175,2026-05-10 12h27.54.039454 +0300,
Receive £1 now,Receive £10 in 100 days time,0,0,0,left,1.5625235839979723,None,,,,,,,,,0,0,0,4,59.413534290972166,,,,,,,,,,59.39501008298248,59.59691729093902,59.59691729093902,59.59691729093902,59.59691729093902,61.167217041016556,,,,,,,left,1.5625235839979723,None,,,,,2786812,001,2026-05-10_12h27.53.800,delay_discount,,2026.1.3,59.98771738293175,2026-05-10 12h27.54.039454 +0300,
Receive £10 now,Receive £10 in 10 days time,1,1,0,left,1.0706556680379435,None,,,,,,,,,0,1,1,0,61.17976962495595,,,,,,,,,,61.16950458299834,61.37976429099217,61.37976429099217,61.37976429099217,61.37976429099217,62.46583970799111,,,,,,,left,1.0706556680379435,None,,,,,2786812,001,2026-05-10_12h27.53.800,delay_discount,,2026.1.3,59.98771738293175,2026-05-10 12h27.54.039454 +0300,
Receive £10 in 14 days time,Receive £7 now,2,2,0,right,1.7232344589428976,None,,,,,,,,,0,2,2,7,62.479751665960066,,,,,,,,,,62.468143541016616,62.6800921659451,62.6800921659451,62.6800921659451,62.6800921659451,64.4159644159954,,,,,,,right,1.7232344589428976,None,,,,,2786812,001,2026-05-10_12h27.53.800,delay_discount,,2026.1.3,59.98771738293175,2026-05-10 12h27.54.039454 +0300,
Receive £8 now,Receive £10 in 30 days time,3,3,0,left,1.5985495840432122,None,,,,,,,,,0,3,3,1,64.42985016596504,,,,,,,,,,64.41829854098614,64.62981662503444,64.62981662503444,64.62981662503444,64.62981662503444,66.23279416596051,,,,,,,left,1.5985495840432122,None,,,,,2786812,001,2026-05-10_12h27.53.800,delay_discount,,2026.1.3,59.98771738293175,2026-05-10 12h27.54.039454 +0300,
Receive £5 in 80 days time,Receive £4 now,4,4,0,right,1.670930334017612,None,,,,,,,,,0,4,4,5,66.24678220797796,,,,,,,,,,66.23521441605408,66.44637129094917,66.44637129094917,66.44637129094917,66.44637129094917,68.13304208300542,,,,,,,right,1.670930334017612,None,,,,,2786812,001,2026-05-10_12h27.53.800,delay_discount,,2026.1.3,59.98771738293175,2026-05-10 12h27.54.039454 +0300,
Receive £9 in 30 days time,Receive £2 now,5,5,0,left,1.8485424589598551,None,,,,,,,,,0,5,5,6,68.14689004095271,,,,,,,,,,68.1354109159438,68.34673612494953,68.34673612494953,68.34673612494953,68.34673612494953,70.1998531660065,,,,,,,left,1.8485424589598551,None,,,,,2786812,001,2026-05-10_12h27.53.800,delay_discount,,2026.1.3,59.98771738293175,2026-05-10 12h27.54.039454 +0300,
Receive £3 in 90 days time,Receive £5 now,6,6,0,right,1.4087964169448242,None,,,,,,,,,0,6,6,8,70.21356083301362,,,,,,,,,,70.20223254105076,70.41340745799243,70.41340745799243,70.41340745799243,70.41340745799243,71.83207087498158,,,,,,,right,1.4087964169448242,None,,,,,2786812,001,2026-05-10_12h27.53.800,delay_discount,,2026.1.3,59.98771738293175,2026-05-10 12h27.54.039454 +0300,
Receive £5 now,Receive £8 in 2 days time,7,7,0,right,1.1877687090309337,None,,,,,,,,,0,7,7,2,71.84601004095748,,,,,,,,,,71.83396595797967,72.0464285829803,72.0464285829803,72.0464285829803,72.0464285829803,73.24929295794573,,,,,,,right,1.1877687090309337,None,,,,,2786812,001,2026-05-10_12h27.53.800,delay_discount,,2026.1.3,59.98771738293175,2026-05-10 12h27.54.039454 +0300,
Receive £10 in 5 days time,Receive £9 now,8,8,0,right,2.6853117090649903,None,,,,,,,,,0,8,8,9,73.26305950002279,,,,,,,,,,73.25157637498342,73.46280508302152,73.46280508302152,73.46280508302152,73.46280508302152,76.14923300000373,,,,,,,right,2.6853117090649903,None,,,,,2786812,001,2026-05-10_12h27.53.800,delay_discount,,2026.1.3,59.98771738293175,2026-05-10 12h27.54.039454 +0300,
Receive £1 now,Receive £7 in 7 days time,9,9,0,right,1.175454625976272,None,,,,,,,,,0,9,9,3,76.16285129101016,,,,,,,,,,76.15122845803853,76.36266166600399,76.36266166600399,76.36266166600399,76.36266166600399,77.54982991598081,,,,,,,right,1.175454625976272,None,,,,,2786812,001,2026-05-10_12h27.53.800,delay_discount,,2026.1.3,59.98771738293175,2026-05-10 12h27.54.039454 +0300,
,,,,,,,,,,,,,,,,,,,,,,,,,,,,,,,,,,,,,,,,,,,,,77.55076708295383,77.5635674999794,80.56347795797046,80.54871254099999,2786812,001,2026-05-10_12h27.53.800,delay_discount,,2026.1.3,59.98771738293175,2026-05-10 12h27.54.039454 +0300,
