instructions.started,instructions.stopped,key_resp_start.keys,key_resp_start.rt,key_resp_start.duration,participant,session,date,expName,psychopyVersion,OS,frameRate,trial.started,trial.stopped,key_resp.keys,key_resp.rt,key_resp.duration,trials_1.thisRepN,trials_1.thisTrialN,trials_1.thisN,trials_1.thisIndex,trials_1.ran,amount1,amount2,trials_2.thisRepN,trials_2.thisTrialN,trials_2.thisN,trials_2.thisIndex,trials_2.ran,trials_3.thisRepN,trials_3.thisTrialN,trials_3.thisN,trials_3.thisIndex,trials_3.ran,bye.started,bye.stopped
0,17.578,space,17.572,,ogumus,001,2026-05-11_23h11.56.846,delay_discount,2026.1.3,Win32,165.0165017,,,,,,,,,,,,,,,,,,,,,,,,
,,,,,ogumus,001,2026-05-11_23h11.56.846,delay_discount,2026.1.3,Win32,165.0165017,17.585,21.269,left,3.471,,0,0,0,6,1,Receive £9 in 30 days time,Receive £2 now,,,,,,,,,,,,
,,,,,ogumus,001,2026-05-11_23h11.56.846,delay_discount,2026.1.3,Win32,165.0165017,21.269,24.196,right,2.717,,0,1,1,5,1,Receive £5 in 80 days time,Receive £4 now,,,,,,,,,,,,
,,,,,ogumus,001,2026-05-11_23h11.56.846,delay_discount,2026.1.3,Win32,165.0165017,24.197,27.487,right,3.078,,0,2,2,3,1,Receive £1 now,Receive £7 in 7 days time,,,,,,,,,,,,
,,,,,ogumus,001,2026-05-11_23h11.56.846,delay_discount,2026.1.3,Win32,165.0165017,27.489,30.348,left,2.65,,0,3,3,0,1,Receive £10 now,Receive £10 in 10 days time,,,,,,,,,,,,
,,,,,ogumus,001,2026-05-11_23h11.56.846,delay_discount,2026.1.3,Win32,165.0165017,30.348,32.845,right,2.286,,0,4,4,8,1,Receive £3 in 90 days time,Receive £5 now,,,,,,,,,,,,
,,,,,ogumus,001,2026-05-11_23h11.56.846,delay_discount,2026.1.3,Win32,165.0165017,32.845,38.566,right,5.508,,0,5,5,4,1,Receive £1 now,Receive £10 in 100 days time,,,,,,,,,,,,
,,,,,ogumus,001,2026-05-11_23h11.56.846,delay_discount,2026.1.3,Win32,165.0165017,38.566,40.371,right,1.595,,0,6,6,2,1,Receive £5 now,Receive £8 in 2 days time,,,,,,,,,,,,
,,,,,ogumus,001,2026-05-11_23h11.56.846,delay_discount,2026.1.3,Win32,165.0165017,40.371,43.916,right,3.334,,0,7,7,7,1,Receive £10 in 14 days time,Receive £7 now,,,,,,,,,,,,
,,,,,ogumus,001,2026-05-11_23h11.56.846,delay_discount,2026.1.3,Win32,165.0165017,43.917,50.499,right,6.378,,0,8,8,9,1,Receive £10 in 5 days time,Receive £9 now,,,,,,,,,,,,
,,,,,ogumus,001,2026-05-11_23h11.56.846,delay_discount,2026.1.3,Win32,165.0165017,50.499,55.94,left,5.231,,0,9,9,1,1,Receive £8 now,Receive £10 in 30 days time,,,,,,,,,,,,
,,,,,ogumus,001,2026-05-11_23h11.56.846,delay_discount,2026.1.3,Win32,165.0165017,55.944,58.668,left,2.516,,,,,,,"Receive £5,000 now",Receive £800 in 2 days time,0,0,0,2,1,,,,,,,
,,,,,ogumus,001,2026-05-11_23h11.56.846,delay_discount,2026.1.3,Win32,165.0165017,58.668,61.147,right,2.268,,,,,,,"Receive £6,000 now","Receive £20,000 in 100 days time",0,1,1,4,1,,,,,,,
,,,,,ogumus,001,2026-05-11_23h11.56.846,delay_discount,2026.1.3,Win32,165.0165017,61.149,63.244,right,1.887,,,,,,,"Receive £10,000 now","Receive £100,000 in 10 days time",0,2,2,0,1,,,,,,,
,,,,,ogumus,001,2026-05-11_23h11.56.846,delay_discount,2026.1.3,Win32,165.0165017,63.244,68.34,left,4.894,,,,,,,"Receive £500,000 in 80 days time","Receive £4,000 now",0,3,3,5,1,,,,,,,
,,,,,ogumus,001,2026-05-11_23h11.56.846,delay_discount,2026.1.3,Win32,165.0165017,68.341,70.285,left,1.735,,,,,,,"Receive £8,000 in 30 days time","Receive £3,000 now",0,4,4,6,1,,,,,,,
,,,,,ogumus,001,2026-05-11_23h11.56.846,delay_discount,2026.1.3,Win32,165.0165017,70.286,72.231,right,1.739,,,,,,,"Receive £80,000 now","Receive £200,000 in 30 days time",0,5,5,1,1,,,,,,,
,,,,,ogumus,001,2026-05-11_23h11.56.846,delay_discount,2026.1.3,Win32,165.0165017,72.231,75.909,left,3.473,,,,,,,"Receive £30,000 in 90 days time","Receive £20,000 now",0,6,6,8,1,,,,,,,
,,,,,ogumus,001,2026-05-11_23h11.56.846,delay_discount,2026.1.3,Win32,165.0165017,75.91,79.54,right,3.419,,,,,,,"Receive £100,000 now","Receive £7,000,000 in 1 year time",0,7,7,3,1,,,,,,,
,,,,,ogumus,001,2026-05-11_23h11.56.846,delay_discount,2026.1.3,Win32,165.0165017,79.541,81.71,left,1.96,,,,,,,"Receive £100,000 in 5 days time","Receive £20,000 now",0,8,8,9,1,,,,,,,
,,,,,ogumus,001,2026-05-11_23h11.56.846,delay_discount,2026.1.3,Win32,165.0165017,81.71,84.346,right,2.427,,,,,,,"Receive £1,000 in 14 days time",Receive £700 now,0,9,9,7,1,,,,,,,
,,,,,ogumus,001,2026-05-11_23h11.56.846,delay_discount,2026.1.3,Win32,165.0165017,84.351,87.031,right,2.471,,,,,,,Receive £5 in 80 days time,Receive £4 now,,,,,,0,0,0,5,1,,
,,,,,ogumus,001,2026-05-11_23h11.56.846,delay_discount,2026.1.3,Win32,165.0165017,87.031,89.558,right,2.314,,,,,,,Receive £5 now,Receive £8 in 2 days time,,,,,,0,1,1,2,1,,
,,,,,ogumus,001,2026-05-11_23h11.56.846,delay_discount,2026.1.3,Win32,165.0165017,89.558,93.067,right,3.299,,,,,,,Receive £10 in 14 days time,Receive £7 now,,,,,,0,2,2,7,1,,
,,,,,ogumus,001,2026-05-11_23h11.56.846,delay_discount,2026.1.3,Win32,165.0165017,93.068,94.654,left,1.376,,,,,,,Receive £10 now,Receive £10 in 10 days time,,,,,,0,3,3,0,1,,
,,,,,ogumus,001,2026-05-11_23h11.56.846,delay_discount,2026.1.3,Win32,165.0165017,94.655,96.545,right,1.682,,,,,,,Receive £1 now,Receive £7 in 7 days time,,,,,,0,4,4,3,1,,
,,,,,ogumus,001,2026-05-11_23h11.56.846,delay_discount,2026.1.3,Win32,165.0165017,96.546,100.703,right,3.946,,,,,,,Receive £1 now,Receive £10 in 100 days time,,,,,,0,5,5,4,1,,
,,,,,ogumus,001,2026-05-11_23h11.56.846,delay_discount,2026.1.3,Win32,165.0165017,100.704,103.509,left,2.594,,,,,,,Receive £9 in 30 days time,Receive £2 now,,,,,,0,6,6,6,1,,
,,,,,ogumus,001,2026-05-11_23h11.56.846,delay_discount,2026.1.3,Win32,165.0165017,103.51,105.927,left,2.206,,,,,,,Receive £8 now,Receive £10 in 30 days time,,,,,,0,7,7,1,1,,
,,,,,ogumus,001,2026-05-11_23h11.56.846,delay_discount,2026.1.3,Win32,165.0165017,105.927,109.006,right,2.867,,,,,,,Receive £10 in 5 days time,Receive £9 now,,,,,,0,8,8,9,1,,
,,,,,ogumus,001,2026-05-11_23h11.56.846,delay_discount,2026.1.3,Win32,165.0165017,109.006,111.23,right,2.019,,,,,,,Receive £3 in 90 days time,Receive £5 now,,,,,,0,9,9,8,1,,
,,,,,ogumus,001,2026-05-11_23h11.56.846,delay_discount,2026.1.3,Win32,165.0165017,,,,,,,,,,,,,,,,,,,,,,,111.23,114.23
