amount1,amount2,thisN,thisTrialN,thisRepN,key_resp.keys,key_resp.rt,key_resp.duration,trials_1.thisRepN,trials_1.thisTrialN,trials_1.thisN,trials_1.thisIndex,trials_2.thisRepN,trials_2.thisTrialN,trials_2.thisN,trials_2.thisIndex,trials_3.thisRepN,trials_3.thisTrialN,trials_3.thisN,trials_3.thisIndex,thisRow.t,notes,piloting,instructions.started,instr_txt.started,key_resp_start.started,instructions.stopped,key_resp_start.keys,key_resp_start.rt,key_resp_start.duration,trial.started,question.started,button_1.started,button_2.started,key_resp.started,trial.stopped,trials_1.key_resp.keys,trials_1.key_resp.rt,trials_1.key_resp.duration,trials_2.key_resp.keys,trials_2.key_resp.rt,trials_2.key_resp.duration,trials_3.key_resp.keys,trials_3.key_resp.rt,trials_3.key_resp.duration,bye.started,bye_txt.started,bye_txt.stopped,bye.stopped,participant,session,date,expName,expVersion,psychopyVersion,frameRate,expStart,
,,,,,,,,,,,,,,,,,,,,,,True,0.06528969999635592,0.06970689998706803,0.06970689998706803,9.685801799991168,space,9.61113789997762,None,,,,,,,,,,,,,,,,,,,,pilot,001,2026-05-09_22h55.21.551,delay_discount,,2026.1.3,164.36365789023841,2026-05-09 22h55.21.712218 +0300,
Receive £10 in 5 days time,Receive £9 now,0,0,0,right,5.324544900038745,None,0,0,0,9,,,,,,,,,9.707877599983476,,,,,,,,,,9.698572299967054,9.8761177000124,9.8761177000124,9.8761177000124,9.8761177000124,15.205888999975286,right,5.324544900038745,None,,,,,,,,,,,pilot,001,2026-05-09_22h55.21.551,delay_discount,,2026.1.3,164.36365789023841,2026-05-09 22h55.21.712218 +0300,
Receive £5 in 80 days time,Receive £4 now,1,1,0,right,1.995113399985712,None,0,1,1,5,,,,,,,,,15.216431399981957,,,,,,,,,,15.210362999991048,15.397692999977153,15.397692999977153,15.397692999977153,15.397692999977153,17.399061399977654,right,1.995113399985712,None,,,,,,,,,,,pilot,001,2026-05-09_22h55.21.551,delay_discount,,2026.1.3,164.36365789023841,2026-05-09 22h55.21.712218 +0300,
Receive £3 in 90 days time,Receive £5 now,2,2,0,right,2.257293500006199,None,0,2,2,8,,,,,,,,,17.411428299965337,,,,,,,,,,17.40183160000015,17.59153759997571,17.59153759997571,17.59153759997571,17.59153759997571,19.853503599995747,right,2.257293500006199,None,,,,,,,,,,,pilot,001,2026-05-09_22h55.21.551,delay_discount,,2026.1.3,164.36365789023841,2026-05-09 22h55.21.712218 +0300,
Receive £10 now,Receive £10 in 10 days time,3,3,0,left,1.6828639999730512,None,0,3,3,0,,,,,,,,,19.85807969997404,,,,,,,,,,19.854476400010753,20.045984599972144,20.045984599972144,20.045984599972144,20.045984599972144,21.732139999978244,left,1.6828639999730512,None,,,,,,,,,,,pilot,001,2026-05-09_22h55.21.551,delay_discount,,2026.1.3,164.36365789023841,2026-05-09 22h55.21.712218 +0300,
Receive £1 now,Receive £7 in 7 days time,4,4,0,right,4.11651449999772,None,0,4,4,3,,,,,,,,,21.741887799988035,,,,,,,,,,21.734881799959112,21.924164699972607,21.924164699972607,21.924164699972607,21.924164699972607,26.041101199982222,right,4.11651449999772,None,,,,,,,,,,,pilot,001,2026-05-09_22h55.21.551,delay_discount,,2026.1.3,164.36365789023841,2026-05-09 22h55.21.712218 +0300,
Receive £5 now,Receive £8 in 2 days time,5,5,0,right,4.502651399991009,None,0,5,5,2,,,,,,,,,26.053754199994728,,,,,,,,,,26.04380719998153,26.234041399962734,26.234041399962734,26.234041399962734,26.234041399962734,30.73799339996185,right,4.502651399991009,None,,,,,,,,,,,pilot,001,2026-05-09_22h55.21.551,delay_discount,,2026.1.3,164.36365789023841,2026-05-09 22h55.21.712218 +0300,
Receive £1 now,Receive £10 in 100 days time,6,6,0,right,4.496443399984855,None,0,6,6,4,,,,,,,,,30.742751899990253,,,,,,,,,,30.738978300010785,30.936253499996383,30.936253499996383,30.936253499996383,30.936253499996383,35.44027919997461,right,4.496443399984855,None,,,,,,,,,,,pilot,001,2026-05-09_22h55.21.551,delay_discount,,2026.1.3,164.36365789023841,2026-05-09 22h55.21.712218 +0300,
Receive £8 now,Receive £10 in 30 days time,7,7,0,left,1.8388380000251345,None,0,7,7,1,,,,,,,,,35.44571770000039,,,,,,,,,,35.441217999963555,35.63405849999981,35.63405849999981,35.63405849999981,35.63405849999981,37.477324399980716,left,1.8388380000251345,None,,,,,,,,,,,pilot,001,2026-05-09_22h55.21.551,delay_discount,,2026.1.3,164.36365789023841,2026-05-09 22h55.21.712218 +0300,
Receive £9 in 30 days time,Receive £2 now,8,8,0,right,3.658879700000398,None,0,8,8,6,,,,,,,,,37.48193199996604,,,,,,,,,,37.478397300001234,37.66994349996094,37.66994349996094,37.66994349996094,37.66994349996094,41.33211029996164,right,3.658879700000398,None,,,,,,,,,,,pilot,001,2026-05-09_22h55.21.551,delay_discount,,2026.1.3,164.36365789023841,2026-05-09 22h55.21.712218 +0300,
Receive £10 in 14 days time,Receive £7 now,9,9,0,right,2.3083234999794513,None,0,9,9,7,,,,,,,,,41.336493899987545,,,,,,,,,,41.33304800000042,41.524477800005116,41.524477800005116,41.524477800005116,41.524477800005116,43.83463309996296,right,2.3083234999794513,None,,,,,,,,,,,pilot,001,2026-05-09_22h55.21.551,delay_discount,,2026.1.3,164.36365789023841,2026-05-09 22h55.21.712218 +0300,
"Receive £30,000 in 90 days time","Receive £20,000 now",0,0,0,right,1.8533314000233077,None,,,,,0,0,0,8,,,,,43.84567139996216,,,,,,,,,,43.838602099975105,44.027617099985946,44.027617099985946,44.027617099985946,44.027617099985946,45.883151299960446,,,,right,1.8533314000233077,None,,,,,,,,pilot,001,2026-05-09_22h55.21.551,delay_discount,,2026.1.3,164.36365789023841,2026-05-09 22h55.21.712218 +0300,
"Receive £5,000 now",Receive £800 in 2 days time,1,1,0,left,3.0289966000127606,None,,,,,0,1,1,2,,,,,45.888293500000145,,,,,,,,,,45.88412459997926,46.07581750000827,46.07581750000827,46.07581750000827,46.07581750000827,49.10766649997095,,,,left,3.0289966000127606,None,,,,,,,,pilot,001,2026-05-09_22h55.21.551,delay_discount,,2026.1.3,164.36365789023841,2026-05-09 22h55.21.712218 +0300,
"Receive £1,000 in 14 days time",Receive £700 now,2,2,0,right,2.86296910000965,None,,,,,0,2,2,7,,,,,49.112157800002024,,,,,,,,,,49.10868219996337,49.305687099986244,49.305687099986244,49.305687099986244,49.305687099986244,52.17398670001421,,,,right,2.86296910000965,None,,,,,,,,pilot,001,2026-05-09_22h55.21.551,delay_discount,,2026.1.3,164.36365789023841,2026-05-09 22h55.21.712218 +0300,
"Receive £6,000 now","Receive £20,000 in 100 days time",3,3,0,right,2.0977649000124075,None,,,,,0,3,3,4,,,,,52.18720059999032,,,,,,,,,,52.17688459996134,52.366978299978655,52.366978299978655,52.366978299978655,52.366978299978655,54.47093119996134,,,,right,2.0977649000124075,None,,,,,,,,pilot,001,2026-05-09_22h55.21.551,delay_discount,,2026.1.3,164.36365789023841,2026-05-09 22h55.21.712218 +0300,
"Receive £100,000 in 5 days time","Receive £20,000 now",4,4,0,left,2.289628200000152,None,,,,,0,4,4,9,,,,,54.47557680000318,,,,,,,,,,54.47194249997847,54.66358870000113,54.66358870000113,54.66358870000113,54.66358870000113,56.95656909997342,,,,left,2.289628200000152,None,,,,,,,,pilot,001,2026-05-09_22h55.21.551,delay_discount,,2026.1.3,164.36365789023841,2026-05-09 22h55.21.712218 +0300,
"Receive £100,000 now","Receive £7,000,000 in 1 year time",5,5,0,right,2.0524490000098012,None,,,,,0,5,5,3,,,,,56.961698599974625,,,,,,,,,,56.95758220000425,57.1483797999681,57.1483797999681,57.1483797999681,57.1483797999681,59.20449859998189,,,,right,2.0524490000098012,None,,,,,,,,pilot,001,2026-05-09_22h55.21.551,delay_discount,,2026.1.3,164.36365789023841,2026-05-09 22h55.21.712218 +0300,
"Receive £10,000 now","Receive £100,000 in 10 days time",6,6,0,right,1.6518538999953307,None,,,,,0,6,6,0,,,,,59.208879599987995,,,,,,,,,,59.20548289996805,59.39695279998705,59.39695279998705,59.39695279998705,59.39695279998705,61.052619399968535,,,,right,1.6518538999953307,None,,,,,,,,pilot,001,2026-05-09_22h55.21.551,delay_discount,,2026.1.3,164.36365789023841,2026-05-09 22h55.21.712218 +0300,
"Receive £8,000 in 30 days time","Receive £3,000 now",7,7,0,left,1.7659865000168793,None,,,,,0,7,7,6,,,,,61.057272400008515,,,,,,,,,,61.05363199999556,61.25081980001414,61.25081980001414,61.25081980001414,61.25081980001414,63.02254959999118,,,,left,1.7659865000168793,None,,,,,,,,pilot,001,2026-05-09_22h55.21.551,delay_discount,,2026.1.3,164.36365789023841,2026-05-09 22h55.21.712218 +0300,
"Receive £500,000 in 80 days time","Receive £4,000 now",8,8,0,left,1.8097592000267468,None,,,,,0,8,8,5,,,,,63.0269787000143,,,,,,,,,,63.02356229996076,63.21498280001106,63.21498280001106,63.21498280001106,63.21498280001106,65.02823719999287,,,,left,1.8097592000267468,None,,,,,,,,pilot,001,2026-05-09_22h55.21.551,delay_discount,,2026.1.3,164.36365789023841,2026-05-09 22h55.21.712218 +0300,
"Receive £80,000 now","Receive £200,000 in 30 days time",9,9,0,right,1.5152796999900602,None,,,,,0,9,9,1,,,,,65.03304639999988,,,,,,,,,,65.02924599999096,65.22137589997146,65.22137589997146,65.22137589997146,65.22137589997146,66.73753759998363,,,,right,1.5152796999900602,None,,,,,,,,pilot,001,2026-05-09_22h55.21.551,delay_discount,,2026.1.3,164.36365789023841,2026-05-09 22h55.21.712218 +0300,
Receive £5 in 80 days time,Receive £4 now,0,0,0,right,4.126544300001115,None,,,,,,,,,0,0,0,5,66.7475451999926,,,,,,,,,,66.74233280000044,66.93011909996858,66.93011909996858,66.93011909996858,66.93011909996858,71.05915919999825,,,,,,,right,4.126544300001115,None,,,,,pilot,001,2026-05-09_22h55.21.551,delay_discount,,2026.1.3,164.36365789023841,2026-05-09 22h55.21.712218 +0300,
Receive £3 in 90 days time,Receive £5 now,1,1,0,right,1.2854485999559984,None,,,,,,,,,0,1,1,8,71.06319710001117,,,,,,,,,,71.06008889997611,71.2514340999769,71.2514340999769,71.2514340999769,71.2514340999769,72.53810559998965,,,,,,,right,1.2854485999559984,None,,,,,pilot,001,2026-05-09_22h55.21.551,delay_discount,,2026.1.3,164.36365789023841,2026-05-09 22h55.21.712218 +0300,
Receive £10 in 5 days time,Receive £9 now,2,2,0,right,1.6711321999900974,None,,,,,,,,,0,2,2,9,72.54204079997726,,,,,,,,,,72.5390443999786,72.73001709999517,72.73001709999517,72.73001709999517,72.73001709999517,74.4049177999841,,,,,,,right,1.6711321999900974,None,,,,,pilot,001,2026-05-09_22h55.21.551,delay_discount,,2026.1.3,164.36365789023841,2026-05-09 22h55.21.712218 +0300,
Receive £1 now,Receive £10 in 100 days time,3,3,0,right,7.29218970000511,None,,,,,,,,,0,3,3,4,74.4086449999595,,,,,,,,,,74.40589049999835,74.59673290001228,74.59673290001228,74.59673290001228,74.59673290001228,81.89473920001183,,,,,,,right,7.29218970000511,None,,,,,pilot,001,2026-05-09_22h55.21.551,delay_discount,,2026.1.3,164.36365789023841,2026-05-09 22h55.21.712218 +0300,
Receive £10 in 14 days time,Receive £7 now,4,4,0,right,4.321292100008577,None,,,,,,,,,0,4,4,7,81.89932729996508,,,,,,,,,,81.89569889998529,82.08750169997802,82.08750169997802,82.08750169997802,82.08750169997802,86.41152899997542,,,,,,,right,4.321292100008577,None,,,,,pilot,001,2026-05-09_22h55.21.551,delay_discount,,2026.1.3,164.36365789023841,2026-05-09 22h55.21.712218 +0300,
Receive £10 now,Receive £10 in 10 days time,5,5,0,left,1.0142168999882415,None,,,,,,,,,0,5,5,0,86.41983460000483,,,,,,,,,,86.41247879998991,86.60246660001576,86.60246660001576,86.60246660001576,86.60246660001576,87.62124399997992,,,,,,,left,1.0142168999882415,None,,,,,pilot,001,2026-05-09_22h55.21.551,delay_discount,,2026.1.3,164.36365789023841,2026-05-09 22h55.21.712218 +0300,
Receive £9 in 30 days time,Receive £2 now,6,6,0,left,1.2768047000281513,None,,,,,,,,,0,6,6,6,87.62664480000967,,,,,,,,,,87.6221826999681,87.82001749996562,87.82001749996562,87.82001749996562,87.82001749996562,89.09991789999185,,,,,,,left,1.2768047000281513,None,,,,,pilot,001,2026-05-09_22h55.21.551,delay_discount,,2026.1.3,164.36365789023841,2026-05-09 22h55.21.712218 +0300,
Receive £5 now,Receive £8 in 2 days time,7,7,0,left,1.291583999991417,None,,,,,,,,,0,7,7,2,89.10534439998446,,,,,,,,,,89.10087570000906,89.29342729999917,89.29342729999917,89.29342729999917,89.29342729999917,90.58550280000782,,,,,,,left,1.291583999991417,None,,,,,pilot,001,2026-05-09_22h55.21.551,delay_discount,,2026.1.3,164.36365789023841,2026-05-09 22h55.21.712218 +0300,
Receive £8 now,Receive £10 in 30 days time,8,8,0,left,1.118656300008297,None,,,,,,,,,0,8,8,1,90.5904647000134,,,,,,,,,,90.58649329998298,90.77811979997205,90.77811979997205,90.77811979997205,90.77811979997205,91.90053509996505,,,,,,,left,1.118656300008297,None,,,,,pilot,001,2026-05-09_22h55.21.551,delay_discount,,2026.1.3,164.36365789023841,2026-05-09 22h55.21.712218 +0300,
Receive £1 now,Receive £7 in 7 days time,9,9,0,right,1.9898721000063233,None,,,,,,,,,0,9,9,3,91.90529659995809,,,,,,,,,,91.90146219998132,92.09878289996414,92.09878289996414,92.09878289996414,92.09878289996414,94.08945109997876,,,,,,,right,1.9898721000063233,None,,,,,pilot,001,2026-05-09_22h55.21.551,delay_discount,,2026.1.3,164.36365789023841,2026-05-09 22h55.21.712218 +0300,
,,,,,,,,,,,,,,,,,,,,,,,,,,,,,,,,,,,,,,,,,,,,,94.08981869998388,94.09312959999079,97.08736949996091,97.08201949996874,pilot,001,2026-05-09_22h55.21.551,delay_discount,,2026.1.3,164.36365789023841,2026-05-09 22h55.21.712218 +0300,
