instructions.started,instructions.stopped,key_resp_start.keys,key_resp_start.rt,key_resp_start.duration,participant,session,date,expName,psychopyVersion,OS,frameRate,trial.started,trial.stopped,key_resp.keys,key_resp.rt,key_resp.duration,trials_1.thisRepN,trials_1.thisTrialN,trials_1.thisN,trials_1.thisIndex,trials_1.ran,amount1,amount2,trials_2.thisRepN,trials_2.thisTrialN,trials_2.thisN,trials_2.thisIndex,trials_2.ran,trials_3.thisRepN,trials_3.thisTrialN,trials_3.thisN,trials_3.thisIndex,trials_3.ran,bye.started,bye.stopped
0,8.296,space,8.283,,sonat,001,2026-05-11_16h53.06.703,delay_discount,2026.1.3,Win32,144.092219,,,,,,,,,,,,,,,,,,,,,,,,
,,,,,sonat,001,2026-05-11_16h53.06.703,delay_discount,2026.1.3,Win32,144.092219,8.307,10.366,left,1.84,,0,0,0,8,1,Receive £3 in 90 days time,Receive £5 now,,,,,,,,,,,,
,,,,,sonat,001,2026-05-11_16h53.06.703,delay_discount,2026.1.3,Win32,144.092219,10.366,12.137,left,1.566,,0,1,1,6,1,Receive £9 in 30 days time,Receive £2 now,,,,,,,,,,,,
,,,,,sonat,001,2026-05-11_16h53.06.703,delay_discount,2026.1.3,Win32,144.092219,12.138,17.977,left,5.635,,0,2,2,7,1,Receive £10 in 14 days time,Receive £7 now,,,,,,,,,,,,
,,,,,sonat,001,2026-05-11_16h53.06.703,delay_discount,2026.1.3,Win32,144.092219,17.977,21.373,left,3.188,,0,3,3,2,1,Receive £5 now,Receive £8 in 2 days time,,,,,,,,,,,,
,,,,,sonat,001,2026-05-11_16h53.06.703,delay_discount,2026.1.3,Win32,144.092219,21.374,26.658,left,5.079,,0,4,4,4,1,Receive £1 now,Receive £10 in 100 days time,,,,,,,,,,,,
,,,,,sonat,001,2026-05-11_16h53.06.703,delay_discount,2026.1.3,Win32,144.092219,26.658,30.2,right,3.327,,0,5,5,9,1,Receive £10 in 5 days time,Receive £9 now,,,,,,,,,,,,
,,,,,sonat,001,2026-05-11_16h53.06.703,delay_discount,2026.1.3,Win32,144.092219,30.2,32.492,right,2.083,,0,6,6,5,1,Receive £5 in 80 days time,Receive £4 now,,,,,,,,,,,,
,,,,,sonat,001,2026-05-11_16h53.06.703,delay_discount,2026.1.3,Win32,144.092219,32.492,35.825,left,3.125,,0,7,7,1,1,Receive £8 now,Receive £10 in 30 days time,,,,,,,,,,,,
,,,,,sonat,001,2026-05-11_16h53.06.703,delay_discount,2026.1.3,Win32,144.092219,35.827,38.387,left,2.347,,0,8,8,0,1,Receive £10 now,Receive £10 in 10 days time,,,,,,,,,,,,
,,,,,sonat,001,2026-05-11_16h53.06.703,delay_discount,2026.1.3,Win32,144.092219,38.387,40.991,right,2.396,,0,9,9,3,1,Receive £1 now,Receive £7 in 7 days time,,,,,,,,,,,,
,,,,,sonat,001,2026-05-11_16h53.06.703,delay_discount,2026.1.3,Win32,144.092219,40.997,44.658,left,3.452,,,,,,,"Receive £30,000 in 90 days time","Receive £20,000 now",0,0,0,8,1,,,,,,,
,,,,,sonat,001,2026-05-11_16h53.06.703,delay_discount,2026.1.3,Win32,144.092219,44.659,46.408,right,1.542,,,,,,,"Receive £6,000 now","Receive £20,000 in 100 days time",0,1,1,4,1,,,,,,,
,,,,,sonat,001,2026-05-11_16h53.06.703,delay_discount,2026.1.3,Win32,144.092219,46.409,49.526,left,2.91,,,,,,,"Receive £5,000 now",Receive £800 in 2 days time,0,2,2,2,1,,,,,,,
,,,,,sonat,001,2026-05-11_16h53.06.703,delay_discount,2026.1.3,Win32,144.092219,49.527,53.888,left,4.148,,,,,,,"Receive £100,000 in 5 days time","Receive £20,000 now",0,3,3,9,1,,,,,,,
,,,,,sonat,001,2026-05-11_16h53.06.703,delay_discount,2026.1.3,Win32,144.092219,53.888,55.971,left,1.877,,,,,,,"Receive £500,000 in 80 days time","Receive £4,000 now",0,4,4,5,1,,,,,,,
,,,,,sonat,001,2026-05-11_16h53.06.703,delay_discount,2026.1.3,Win32,144.092219,55.971,59.936,right,3.758,,,,,,,"Receive £100,000 now","Receive £7,000,000 in 1 year time",0,5,5,3,1,,,,,,,
,,,,,sonat,001,2026-05-11_16h53.06.703,delay_discount,2026.1.3,Win32,144.092219,59.936,63.29,right,3.149,,,,,,,"Receive £10,000 now","Receive £100,000 in 10 days time",0,6,6,0,1,,,,,,,
,,,,,sonat,001,2026-05-11_16h53.06.703,delay_discount,2026.1.3,Win32,144.092219,63.291,71.241,left,7.74,,,,,,,"Receive £1,000 in 14 days time",Receive £700 now,0,7,7,7,1,,,,,,,
,,,,,sonat,001,2026-05-11_16h53.06.703,delay_discount,2026.1.3,Win32,144.092219,71.244,72.651,left,1.195,,,,,,,"Receive £8,000 in 30 days time","Receive £3,000 now",0,8,8,6,1,,,,,,,
,,,,,sonat,001,2026-05-11_16h53.06.703,delay_discount,2026.1.3,Win32,144.092219,72.652,74.352,right,1.496,,,,,,,"Receive £80,000 now","Receive £200,000 in 30 days time",0,9,9,1,1,,,,,,,
,,,,,sonat,001,2026-05-11_16h53.06.703,delay_discount,2026.1.3,Win32,144.092219,74.36,76.179,right,1.612,,,,,,,Receive £3 in 90 days time,Receive £5 now,,,,,,0,0,0,8,1,,
,,,,,sonat,001,2026-05-11_16h53.06.703,delay_discount,2026.1.3,Win32,144.092219,76.179,78.95,right,2.562,,,,,,,Receive £5 in 80 days time,Receive £4 now,,,,,,0,1,1,5,1,,
,,,,,sonat,001,2026-05-11_16h53.06.703,delay_discount,2026.1.3,Win32,144.092219,78.95,80.124,right,0.968,,,,,,,Receive £10 in 14 days time,Receive £7 now,,,,,,0,2,2,7,1,,
,,,,,sonat,001,2026-05-11_16h53.06.703,delay_discount,2026.1.3,Win32,144.092219,80.124,81.409,right,1.077,,,,,,,Receive £1 now,Receive £7 in 7 days time,,,,,,0,3,3,3,1,,
,,,,,sonat,001,2026-05-11_16h53.06.703,delay_discount,2026.1.3,Win32,144.092219,81.409,83.513,left,1.898,,,,,,,Receive £8 now,Receive £10 in 30 days time,,,,,,0,4,4,1,1,,
,,,,,sonat,001,2026-05-11_16h53.06.703,delay_discount,2026.1.3,Win32,144.092219,83.513,84.915,right,1.195,,,,,,,Receive £1 now,Receive £10 in 100 days time,,,,,,0,5,5,4,1,,
,,,,,sonat,001,2026-05-11_16h53.06.703,delay_discount,2026.1.3,Win32,144.092219,84.916,93.901,left,8.78,,,,,,,Receive £9 in 30 days time,Receive £2 now,,,,,,0,6,6,6,1,,
,,,,,sonat,001,2026-05-11_16h53.06.703,delay_discount,2026.1.3,Win32,144.092219,93.902,95.735,left,1.627,,,,,,,Receive £10 now,Receive £10 in 10 days time,,,,,,0,7,7,0,1,,
,,,,,sonat,001,2026-05-11_16h53.06.703,delay_discount,2026.1.3,Win32,144.092219,95.736,97.916,left,1.972,,,,,,,Receive £10 in 5 days time,Receive £9 now,,,,,,0,8,8,9,1,,
,,,,,sonat,001,2026-05-11_16h53.06.703,delay_discount,2026.1.3,Win32,144.092219,97.916,100.374,right,2.254,,,,,,,Receive £5 now,Receive £8 in 2 days time,,,,,,0,9,9,2,1,,
,,,,,sonat,001,2026-05-11_16h53.06.703,delay_discount,2026.1.3,Win32,144.092219,,,,,,,,,,,,,,,,,,,,,,,100.375,103.375
